Folder: ml_demystified/projects/solarcell/xrd/xrdpy/XRDpy/input data

File: sample2.csv
27.9833,1.01724
28.1115,1.02038
28.2398,1.01724
28.3681,1.02038
28.4964,1.01881
28.6248,1.01881
28.7532,1.02978
28.8816,1.01881
29.0101,1.01411
29.1386,1.02665
29.2672,1.01881
29.3958,1.02821
29.5244,1.01724
29.6531,1.01411
29.7818,1.02508
29.9104,1.03448
30.0391,1.02351
30.1678,1.01881
30.2965,1.02508
30.4252,1.02665
30.5538,1.02508
30.6825,1.01411
30.811,1.0094
30.9396,1.01881
31.0681,1.01567
31.1966,1.02508
31.325,1.02508
31.4533,1.01881
31.5816,1.02978
31.7098,1.02038
31.8379,1.0721
31.9659,1.29624
32.0938,1.69279
32.2216,1.32445
32.3493,1.2116
32.4769,1.0627
32.6044,1.03605
32.7317,1.01724
32.8589,1.01567
32.986,1.02978
33.1129,1.02821
33.2397,1.02194
33.3663,1.01724
33.4928,1.01411
33.6191,1.01881
33.7452,1.01411
33.8711,1.01411
33.9969,1.02665
34.1226,1.02508
34.2482,1.01567
34.3739,1.04075
34.4996,1.11285
34.6255,1.11442
34.7516,1.27429
34.8779,1.53605
35.0045,1.14577
35.1315,1.07994
35.2588,1.02351
35.3867,1.01254
35.5151,1.02194
35.644,1.02821
35.7736,1.02351
35.9039,1.02821
36.0349,1.02665
36.1665,1.03292
36.2986,1.0768
36.4311,1.12539
36.5638,1.4953
36.6967,1.88715
36.8295,1.9373
36.9622,1.32132
37.0947,1.18809
37.2268,1.05643
37.3584,1.04075
37.4893,1.02508
37.6195,1.02038
37.7487,1.02508
37.877,1.02665
38.0042,1.01724
38.1302,1.01881
38.2553,1.01411
38.3796,1.01881
38.503,1.01254
38.6258,1.02038
38.7481,1.02038
38.87,1.01254
38.9915,1.01097
39.1128,1.01411
39.234,1.02038
39.3553,1.02351
39.4766,1.02194
39.5982,1.01881
39.7201,1.01724
39.8425,1.02038
39.9654,1.0094
40.0888,1.01724
40.2128,1.01254
40.3373,1.01567
40.4622,1.01097
40.5876,1.01567
40.7134,1.02351
40.8397,1.0094
40.9663,1.01881
41.0933,1.00784
41.2207,1.01411
41.3484,1.02038
41.4764,1.0094
41.6047,1.02038
41.7332,1.01411
41.862,1.01411
41.991,1.01411
42.1202,1.01881
42.2496,1.01881
42.3792,1.00784
42.5089,1.01724
42.6387,1.01411
42.7686,1.01724
42.8986,1.01724
43.0286,1.01567
43.1587,1.00627
43.2887,1.01254
43.4188,1.01097
43.5488,1.0094
43.6788,1.0094
43.8088,1.01097
43.9387,1.01411
44.0685,1.0094
44.1984,1.01881
44.3281,1.01254
44.4578,1.01567
44.5875,1.0094
44.7171,1.0094
44.8467,1.00784
44.9762,1.01411
45.1057,1.01254
45.2351,1.01097
45.3645,1.01097
45.4938,1.01411
45.6231,1.00627
45.7523,1.01567
45.8815,1.01097
46.0106,1.01254
46.1396,1.01411
46.2686,1.01724
46.3976,1.00784
46.5265,1.00157
46.6553,1.01567
46.7841,1.02194
46.9128,1.02038
47.0415,1.01724
47.1701,1.02821
47.2987,1.02194
47.4272,1.01254
47.5556,1.0094
47.684,1.03605
47.8123,1.02508
47.9406,1.04232
48.0688,1.15047
48.1969,1.18652
48.325,1.12853
48.453,1.08621
48.581,1.04075
48.7089,1.02351
48.8367,1.01567
48.9645,1.01097
49.0922,1.01567
49.22,1.01254
49.3476,1.0094
49.4753,1.01254
49.6029,1.01724
49.7305,1.01567
49.8581,1.01097
49.9857,1.01097
50.1133,1.01254
50.241,1.0094
50.3686,1.01724
50.4962,1.00627
50.6239,1.01724
50.7516,1.01411
50.8794,1.00784
51.0072,1.0047
51.135,1.00627
51.2629,1.00784
51.3909,1.01411
51.5189,1.01254
51.647,1.01254
51.7752,1.01567
51.9034,1.00313
52.0318,1.01254
52.1602,1.01411
52.2888,1.01567
52.4174,1.00313
52.5462,1.0094
52.6751,1.00313
52.8041,1.01254
52.9333,1.0094
53.0626,1.0094
53.192,1.01411
53.3216,1.00784
53.4513,1.00784
53.5811,1.01097
53.711,1.01097
53.841,1.00784
53.971,1.0094
54.101,1.01097
54.231,1.01881
54.361,1.00784
54.491,1.01254
54.6209,1.00627
54.7506,1.01254
54.8803,1.02508
55.0098,1.03135
55.1392,1.01097
55.2684,1.01254
55.3974,1.00313
55.5262,1.00784
55.6547,1.01567
55.7829,1.01097
55.9109,1.0094
56.0385,1.0094
56.1658,1.01881
56.2928,1.01254
56.4194,1.01881
56.5457,1.01881
56.6717,1.01254
56.7975,1.02821
56.923,1.28213
57.0484,1.61129
57.1735,1.22571
57.2986,1.36677
57.4235,1.30564
57.5483,1.14577
57.673,1.11442
57.7977,1.04232
57.9225,1.02821
58.0473,1.02508
58.1722,1.01724
58.2973,1.00784
58.4227,1.01411
58.5483,1.0094
58.6742,1.01724
58.8005,1.0094
58.9273,1.01724
59.0545,1.0047
59.1822,1.0094
59.3104,1.01097
59.4389,1.0094
59.5677,1.00784
59.6967,1.00784
59.8258,1.00627
59.9549,1.01097
60.084,1.01411
60.2129,1.02508
60.3416,1.01097
60.47,1.0047
60.5981,1.00627
60.7259,1.00157
60.8536,1.0047
60.9812,1.00784
61.1088,1.01097
61.2366,1.01254
61.3645,1.01411
61.4927,1.01097
61.6213,1.01881
61.7504,1.00784
61.8801,1.00627
62.0103,1.01724
62.1411,1.0094
62.2723,1.01411
62.404,1.01097
62.536,1.01097
62.6684,1.01254
62.801,1.01881
62.9338,1.01097
63.0668,1.01411
63.1998,1.02038
63.333,1.02351
63.466,1.0627
63.5991,1.11755
63.732,1.23668
63.8647,1.17555
63.9972,1.20219
64.1294,1.11755
64.2612,1.05172
64.3927,1.02508
64.5237,1.02821
64.6542,1.01881
64.7842,1.01254
64.9137,1.01881
65.0428,1.01097
65.1714,1.0094
65.2996,1.01411
65.4273,1.00784
65.5547,1.01567
65.6817,1.01881
65.8083,1.00784
65.9345,1.01097
66.0289,1.01411