Folder: ml_demystified/projects/solarcell/xrd/XRD-new method/XRD/input data

File: sample1.csv
Angle,Intensity 1
27.9833,0.0256849
28.1115,0.008561644
28.2398,0.0376712
28.3681,0.0205479
28.4964,0.0291096
28.6248,0.0205479
28.7532,0.0291096
28.8816,0.0291096
29.0101,0.0188356
29.1386,0.0119863
29.2672,0.0205479
29.3958,0.0171233
29.5244,0.0205479
29.6531,0.0239726
29.7818,0.0222603
29.9104,0.0222603
30.0391,0.0205479
30.1678,0.0188356
30.2965,0.0205479
30.4252,0.0222603
30.5538,0.0222603
30.6825,0.0205479
30.811,0.0239726
30.9396,0.0308219
31.0681,0.0325342
31.1966,0.0342466
31.325,0.0222603
31.4533,0.0359589
31.5816,0.0308219
31.7098,0.101027
31.8379,0.244863
31.9659,0.261986
32.0938,0.434932
32.2216,0.592466
32.3493,0.311644
32.4769,0.114726
32.6044,0.0359589
32.7317,0.0171233
32.8589,0.0291096
32.986,0.0256849
33.1129,0.010274
33.2397,0.0205479
33.3663,0.0188356
33.4928,0.0256849
33.6191,0.0308219
33.7452,0.0222603
33.8711,0.0291096
33.9969,0.0291096
34.1226,0.0342466
34.2482,0.0308219
34.3739,0.0719178
34.4996,0.128425
34.6255,0.15411
34.7516,0.335616
34.8779,0.419521
35.0045,0.349315
35.1315,0.118151
35.2588,0.0445205
35.3867,0.0205479
35.5151,0.0291096
35.644,0.0205479
35.7736,0.0256849
35.9039,0.0239726
36.0349,0.0359589
36.1665,0.113014
36.2986,0.219178
36.4311,0.369863
36.5638,0.40411
36.6967,0.534247
36.8295,0.931507
36.9622,0.638699
37.0947,0.224315
37.2268,0.0496575
37.3584,0.0222603
37.4893,0.0325342
37.6195,0.0222603
37.7487,0.0256849
37.877,0.0308219
38.0042,0.010274
38.1302,0.0205479
38.2553,0.0205479
38.3796,0.015411
38.503,0.0222603
38.6258,0.015411
38.7481,0.0256849
38.87,0.0342466
38.9915,0.0205479
39.1128,0.0171233
39.234,0.0171233
39.3553,0.015411
39.4766,0.0188356
39.5982,0.0222603
39.7201,0.015411
39.8425,0.0188356
39.9654,0.008561644
40.0888,0.015411
40.2128,0.0205479
40.3373,0.0171233
40.4622,0.015411
40.5876,0.008561644
40.7134,0.0171233
40.8397,0.015411
40.9663,0.0205479
41.0933,0.015411
41.2207,0.0119863
41.3484,0.0171233
41.4764,0.008561644
41.6047,0.0205479
41.7332,0.0222603
41.862,0.0119863
41.991,0.010274
42.1202,0.010274
42.2496,0.01369863
42.3792,0.0291096
42.5089,0.005136986
42.6387,0.010274
42.7686,0.0171233
42.8986,0.0171233
43.0286,0.008561644
43.1587,0.0119863
43.2887,0.0119863
43.4188,0.015411
43.5488,0.01369863
43.6788,0.0239726
43.8088,0.0188356
43.9387,0.015411
44.0685,0.0171233
44.1984,0.015411
44.3281,0.0119863
44.4578,0.015411
44.5875,0.015411
44.7171,0.0188356
44.8467,0.0256849
44.9762,0.0188356
45.1057,0.015411
45.2351,0.0171233
45.3645,0.01369863
45.4938,0.010274
45.6231,0.01369863
45.7523,0.008561644
45.8815,0.0205479
46.0106,0.015411
46.1396,0.01369863
46.2686,0.0188356
46.3976,0.008561644
46.5265,0.01369863
46.6553,0.0119863
46.7841,0.01369863
46.9128,0.01369863
47.0415,0.008561644
47.1701,0.0119863
47.2987,0.01369863
47.4272,0.0205479
47.5556,0.0239726
47.684,0.0599315
47.8123,0.0702055
47.9406,0.109589
48.0688,0.08390411
48.1969,0.159247
48.325,0.157534
48.453,0.0958904
48.581,0.0359589
48.7089,0.015411
48.8367,0.010274
48.9645,0.0171233
49.0922,0.010274
49.22,0.0171233
49.3476,0.01369863
49.4753,0.0222603
49.6029,0.008561644
49.7305,0.008561644
49.8581,0.015411
49.9857,0.01369863
50.1133,0.005136986
50.241,0.01369863
50.3686,0.010274
50.4962,0.0171233
50.6239,0.0119863
50.7516,0.008561644
50.8794,0.008561644
51.0072,0.0171233
51.135,0.010274
51.2629,0.0205479
51.3909,0.0119863
51.5189,0.010274
51.647,0.015411
51.7752,0.0119863
51.9034,0.008561644
52.0318,0.010274
52.1602,0.001712329
52.2888,0.0188356
52.4174,0.01369863
52.5462,0.005136986
52.6751,0.0119863
52.8041,0.0171233
52.9333,0.0205479
53.0626,0.01369863
53.192,0.0171233
53.3216,0.0222603
53.4513,0.003424658
53.5811,0.005136986
53.711,0.010274
53.841,0.0119863
53.971,0.01369863
54.101,0.015411
54.231,0.0171233
54.361,0.0222603
54.491,0.01369863
54.6209,0.005136986
54.7506,0.006849315
54.8803,0.008561644
55.0098,0.008561644
55.1392,0.006849315
55.2684,0.008561644
55.3974,0.01369863
55.5262,0.0119863
55.6547,0.015411
55.7829,0.0188356
55.9109,0.01369863
56.0385,0.01369863
56.1658,0.01369863
56.2928,0.0171233
56.4194,0.01369863
56.5457,0.0256849
56.6717,0.0462329
56.7975,0.0599315
56.923,0.133562
57.0484,0.119863
57.1735,0.148973
57.2986,0.30137
57.4235,0.333904
57.5483,0.203767
57.673,0.14726
57.7977,0.0513699
57.9225,0.0376712
58.0473,0.01369863
58.1722,0.01369863
58.2973,0.01369863
58.4227,0.0239726
58.5483,0.01369863
58.6742,0.0222603
58.8005,0.008561644
58.9273,0.0205479
59.0545,0.003424658
59.1822,0.008561644
59.3104,0.006849315
59.4389,0.003424658
59.5677,0.010274
59.6967,0.0119863
59.8258,0.0119863
59.9549,0.0119863
60.084,0.010274
60.2129,0.0119863
60.3416,0.010274
60.47,0.0119863
60.5981,0.010274
60.7259,0.01369863
60.8536,0.0119863
60.9812,0.0171233
61.1088,0.008561644
61.2366,0.0119863
61.3645,0.015411
61.4927,0.010274
61.6213,0.0188356
61.7504,0.01369863
61.8801,0.005136986
62.0103,0.010274
62.1411,0.008561644
62.2723,0.0222603
62.404,0.0119863
62.536,0.001712329
62.6684,0.015411
62.801,0.01369863
62.9338,0.0205479
63.0668,0.0873288
63.1998,0.157534
63.333,0.121575
63.466,0.0787671
63.5991,0.140411
63.732,0.184932
63.8647,0.19863
63.9972,0.191781
64.1294,0.114726
64.2612,0.0530822
64.3927,0.0222603
64.5237,0.015411
64.6542,0.008561644
64.7842,0.0119863
64.9137,0.0171233
65.0428,0.006849315
65.1714,0.010274
65.2996,0.010274
65.4273,0.01369863
65.5547,0.01369863
65.6817,0.010274
65.8083,0.010274
65.9345,0.015411
66.0289,0.015411

File: sample3.csv
Angle,intensity
27.9833,2.1709
28.1115,2.16243
28.2398,2.1709
28.3681,2.19068
28.4964,2.16525
28.6248,2.16808
28.7532,2.14689
28.8816,2.17514
29.0101,2.14548
29.1386,2.17514
29.2672,2.17655
29.3958,2.15395
29.5244,2.17655
29.6531,2.1596
29.7818,2.17797
29.9104,2.13418
30.0391,2.14689
30.1678,2.14689
30.2965,2.13277
30.4252,2.1596
30.5538,2.16102
30.6825,2.17655
30.811,2.15254
30.9396,2.14266
31.0681,2.14548
31.1966,2.14831
31.325,2.13701
31.4533,2.14407
31.5816,2.16808
31.7098,2.15395
31.8379,2.19915
31.9659,2.40819
32.0938,2.96469
32.2216,2.36017
32.3493,2.16667
32.4769,2.17514
32.6044,2.14266
32.7317,2.15113
32.8589,2.13277
32.986,2.13418
33.1129,2.14689
33.2397,2.13842
33.3663,2.15537
33.4928,2.14124
33.6191,2.12525
33.7452,2.14266
33.8711,2.13559
33.9969,2.13277
34.1226,2.13418
34.2482,2.12853
34.3739,2.11441
34.4996,2.10593
34.6255,2.1596
34.7516,2.38701
34.8779,2.34605
35.0045,2.14266
35.1315,2.11723
35.2588,2.11158
35.3867,2.12006
35.5151,2.12571
35.644,2.11299
35.7736,2.09605
35.9039,2.11582
36.0349,2.0904
36.1665,2.10876
36.2986,2.10311
36.4311,2.18079
36.5638,2.50989
36.6967,2.81356
36.8295,2.35734
36.9622,2.13842
37.0947,2.10028
37.2268,2.12994
37.3584,2.09463
37.4893,2.10452
37.6195,2.09463
37.7487,2.11158
37.877,2.10311
38.0042,2.11017
38.1302,2.11723
38.2553,2.09605
38.3796,2.09746
38.503,2.09746
38.6258,2.11441
38.7481,2.08898
38.87,2.10734
38.9915,2.13136
39.1128,2.10169
39.234,2.08333
39.3553,2.08051
39.4766,2.08898
39.5982,2.10311
39.7201,2.08051
39.8425,2.09605
39.9654,2.09887
40.0888,2.09605
40.2128,2.07627
40.3373,2.10593
40.4622,2.10593
40.5876,2.08616
40.7134,2.08051
40.8397,2.09322
40.9663,2.10028
41.0933,2.08616
41.2207,2.08616
41.3484,2.09887
41.4764,2.11864
41.6047,2.10169
41.7332,2.10169
41.862,2.08898
41.991,2.07768
42.1202,2.09746
42.2496,2.08192
42.3792,2.09605
42.5089,2.07345
42.6387,2.09887
42.7686,2.10169
42.8986,2.0791
43.0286,2.09463
43.1587,2.07203
43.2887,2.10169
43.4188,2.08192
43.5488,2.09463
43.6788,2.0904
43.8088,2.08475
43.9387,2.09746
44.0685,2.07768
44.1984,2.09322
44.3281,2.08475
44.4578,2.06638
44.5875,2.09322
44.7171,2.07345
44.8467,2.09463
44.9762,2.07345
45.1057,2.10311
45.2351,2.09181
45.3645,2.0791
45.4938,2.0904
45.6231,2.09746
45.7523,2.08475
45.8815,2.07486
46.0106,2.11017
46.1396,2.05791
46.2686,2.08051
46.3976,2.09181
46.5265,2.08475
46.6553,2.0678
46.7841,2.08475
46.9128,2.08333
47.0415,2.09887
47.1701,2.07486
47.2987,2.08757
47.4272,2.08192
47.5556,2.07486
47.684,2.08475
47.8123,2.07627
47.9406,2.09463
48.0688,2.14266
48.1969,2.19209
48.325,2.14124
48.453,2.08333
48.581,2.10028
48.7089,2.08475
48.8367,2.08051
48.9645,2.06638
49.0922,2.08051
49.22,2.09322
49.3476,2.08898
49.4753,2.0791
49.6029,2.07486
49.7305,2.07345
49.8581,2.06215
49.9857,2.08616
50.1133,2.07345
50.241,2.07062
50.3686,2.0904
50.4962,2.06356
50.6239,2.0678
50.7516,2.06638
50.8794,2.06497
51.0072,2.06215
51.135,2.07768
51.2629,2.07768
51.3909,2.07627
51.5189,2.09605
51.647,2.08051
51.7752,2.07345
51.9034,2.06497
52.0318,2.06921
52.1602,2.06497
52.2888,2.05791
52.4174,2.06921
52.5462,2.06215
52.6751,2.08333
52.8041,2.07062
52.9333,2.06497
53.0626,2.06921
53.192,2.07062
53.3216,2.08475
53.4513,2.05367
53.5811,2.07627
53.711,2.08192
53.841,2.06638
53.971,2.07345
54.101,2.0678
54.231,2.09463
54.361,2.0791
54.491,2.08333
54.6209,2.06073
54.7506,2.07768
54.8803,2.05791
55.0098,2.06073
55.1392,2.0678
55.2684,2.06497
55.3974,2.06921
55.5262,2.06356
55.6547,2.06215
55.7829,2.0678
55.9109,2.05791
56.0385,2.05791
56.1658,2.07486
56.2928,2.07062
56.4194,2.06215
56.5457,2.08757
56.6717,2.06638
56.7975,2.08616
56.923,2.15113
57.0484,2.30791
57.1735,2.25282
57.2986,2.14972
57.4235,2.07627
57.5483,2.06497
57.673,2.06073
57.7977,2.06356
57.9225,2.06356
58.0473,2.0565
58.1722,2.07768
58.2973,2.07345
58.4227,2.07062
58.5483,2.05508
58.6742,2.0565
58.8005,2.06497
58.9273,2.07345
59.0545,2.0678
59.1822,2.06356
59.3104,2.08051
59.4389,2.06638
59.5677,2.08051
59.6967,2.05932
59.8258,2.06073
59.9549,2.10169
60.084,2.06497
60.2129,2.07345
60.3416,2.05932
60.47,2.07345
60.5981,2.08616
60.7259,2.04802
60.8536,2.07062
60.9812,2.06497
61.1088,2.07768
61.2366,2.07345
61.3645,2.06497
61.4927,2.07062
61.6213,2.07486
61.7504,2.06921
61.8801,2.05932
62.0103,2.07768
62.1411,2.07345
62.2723,2.05226
62.404,2.0565
62.536,2.07203
62.6684,2.0565
62.801,2.07203
62.9338,2.06356
63.0668,2.06356
63.1998,2.05508
63.333,2.06073
63.466,2.0678
63.5991,2.11158
63.732,2.14831
63.8647,2.14548
63.9972,2.13277
64.1294,2.09322
64.2612,2.05367
64.3927,2.06356
64.5237,2.05226
64.6542,2.06073
64.7842,2.06638
64.9137,2.05508
65.0428,2.0791
65.1714,2.04944
65.2996,2.06356
65.4273,2.0565
65.5547,2.06356
65.6817,2.06073
65.8083,2.0339
65.9345,2.05508
66.0289,2.04802

File: sample4.csv
Angle,intensity
27.9833,3.01504
28.1115,3.01253
28.2398,3.01754
28.3681,3.0213
28.4964,3.01754
28.6248,3.0213
28.7532,3.01754
28.8816,3.0188
29.0101,3.01754
29.1386,3.01003
29.2672,3.0188
29.3958,3.0213
29.5244,3.03133
29.6531,3.01754
29.7818,3.02005
29.9104,3.01754
30.0391,3.02005
30.1678,3.02256
30.2965,3.02381
30.4252,3.02632
30.5538,3.02506
30.6825,3.02005
30.811,3.01378
30.9396,3.02506
31.0681,3.0213
31.1966,3.02005
31.325,3.02256
31.4533,3.06266
31.5816,3.10777
31.7098,3.2406
31.8379,3.33835
31.9659,3.52757
32.0938,3.71053
32.2216,3.56892
32.3493,3.18672
32.4769,3.05138
32.6044,3.02256
32.7317,3.02005
32.8589,3.01253
32.986,3.0213
33.1129,3.0188
33.2397,3.02632
33.3663,3.01253
33.4928,3.02757
33.6191,3.02005
33.7452,3.02882
33.8711,3.01378
33.9969,3.02005
34.1226,3.02256
34.2482,3.02256
34.3739,3.03885
34.4996,3.04386
34.6255,3.19549
34.7516,3.29323
34.8779,3.35464
35.0045,3.18296
35.1315,3.11779
35.2588,3.07018
35.3867,3.03258
35.5151,3.0213
35.644,3.02005
35.7736,3.03509
35.9039,3.05388
36.0349,3.09774
36.1665,3.21178
36.2986,3.37093
36.4311,3.5401
36.5638,3.68045
36.6967,4
36.8295,3.79449
36.9622,3.24937
37.0947,3.0589
37.2268,3.02005
37.3584,3.02381
37.4893,3.0213
37.6195,3.01504
37.7487,3.0213
37.877,3.02381
38.0042,3.01629
38.1302,3.01754
38.2553,3.01128
38.3796,3.02005
38.503,3.01378
38.6258,3.01003
38.7481,3.00752
38.87,3.02256
38.9915,3.00877
39.1128,3.01378
39.234,3.0213
39.3553,3.01504
39.4766,3.01629
39.5982,3.0188
39.7201,3.00877
39.8425,3.01253
39.9654,3.00877
40.0888,3.00627
40.2128,3.01629
40.3373,3.01754
40.4622,3.01253
40.5876,3.01003
40.7134,3.01128
40.8397,3.01629
40.9663,3.01378
41.0933,3.02005
41.2207,3.01253
41.3484,3.01504
41.4764,3.02256
41.6047,3.00501
41.7332,3.01378
41.862,3.01003
41.991,3.00627
42.1202,3.01378
42.2496,3.01378
42.3792,3.01378
42.5089,3.01629
42.6387,3.01754
42.7686,3.00752
42.8986,3.00877
43.0286,3.00627
43.1587,3.01253
43.2887,3.01754
43.4188,3.01504
43.5488,3.01754
43.6788,3.01504
43.8088,3.01378
43.9387,3.00877
44.0685,3.00752
44.1984,3.0188
44.3281,3.01629
44.4578,3.01253
44.5875,3.01253
44.7171,3.00501
44.8467,3.01378
44.9762,3.00627
45.1057,3.01128
45.2351,3.00752
45.3645,3.00877
45.4938,3.01504
45.6231,3.00627
45.7523,3.00251
45.8815,3.01253
46.0106,3.00877
46.1396,3.01003
46.2686,3.01003
46.3976,3.00501
46.5265,3.01003
46.6553,3.00501
46.7841,3.01629
46.9128,3.02005
47.0415,3.01253
47.1701,3.01378
47.2987,3.02256
47.4272,3.03008
47.5556,3.05388
47.684,3.08271
47.8123,3.06767
47.9406,3.099
48.0688,3.11278
48.1969,3.14662
48.325,3.10276
48.453,3.06767
48.581,3.02256
48.7089,3.01003
48.8367,3.01003
48.9645,3.01504
49.0922,3.00877
49.22,3.01504
49.3476,3.00752
49.4753,3.01128
49.6029,3.01128
49.7305,3.01629
49.8581,3.00752
49.9857,3.01003
50.1133,3.01253
50.241,3.01128
50.3686,3.00752
50.4962,3.00877
50.6239,3.00877
50.7516,3.01504
50.8794,3.00877
51.0072,3.00877
51.135,3.0188
51.2629,3.01003
51.3909,3.00501
51.5189,3.00627
51.647,3.01128
51.7752,3.01754
51.9034,3.00376
52.0318,3.00501
52.1602,3.00752
52.2888,3.01003
52.4174,3.01128
52.5462,3.00877
52.6751,3.01128
52.8041,3.01003
52.9333,3.01128
53.0626,3.01378
53.192,3.00627
53.3216,3.00501
53.4513,3.00376
53.5811,3.00627
53.711,3.00627
53.841,3.01128
53.971,3.01128
54.101,3.00627
54.231,3.01003
54.361,3.00877
54.491,3.01378
54.6209,3.00627
54.7506,3.01128
54.8803,3.01504
55.0098,3.01128
55.1392,3.01128
55.2684,3.00877
55.3974,3.01629
55.5262,3.01003
55.6547,3.01378
55.7829,3.00376
55.9109,3.01128
56.0385,3.02005
56.1658,3.01754
56.2928,3.01754
56.4194,3.02632
56.5457,3.05514
56.6717,3.13033
56.7975,3.11905
56.923,3.18421
57.0484,3.22055
57.1735,3.21554
57.2986,3.32832
57.4235,3.35088
57.5483,3.21303
57.673,3.11654
57.7977,3.02757
57.9225,3.02506
58.0473,3.01253
58.1722,3.01504
58.2973,3.01504
58.4227,3.01253
58.5483,3.01003
58.6742,3.01003
58.8005,3.00501
58.9273,3.00627
59.0545,3.01504
59.1822,3.01003
59.3104,3.00877
59.4389,3.01128
59.5677,3.01253
59.6967,3.00627
59.8258,3.00376
59.9549,3.01253
60.084,3.00752
60.2129,3.01128
60.3416,3.01128
60.47,3.01003
60.5981,3.01253
60.7259,3.01128
60.8536,3.00501
60.9812,3.00752
61.1088,3.00752
61.2366,3.01003
61.3645,3.00627
61.4927,3.01253
61.6213,3.00627
61.7504,3.01003
61.8801,3.00376
62.0103,3.00627
62.1411,3.01003
62.2723,3.01003
62.404,3.01003
62.536,3.01003
62.6684,3.01754
62.801,3.03258
62.9338,3.02882
63.0668,3.0589
63.1998,3.06266
63.333,3.09774
63.466,3.11278
63.5991,3.12281
63.732,3.13409
63.8647,3.17669
63.9972,3.11028
64.1294,3.05263
64.2612,3.02757
64.3927,3.00877
64.5237,3.01754
64.6542,3.02256
64.7842,3.01754
64.9137,3.00752
65.0428,3.00877
65.1714,3.01253
65.2996,3.00752
65.4273,3.00627
65.5547,3.01003
65.6817,3.00877
65.8083,3.00501
65.9345,3.01128
66.0289,3.00752

File: sample5.csv
Angle,intensity
27.9833,4.00856
28.1115,4.00628
28.2398,4.00856
28.3681,4.01199
28.4964,4.00799
28.6248,4.0097
28.7532,4.00799
28.8816,4.004
29.0101,4.0097
29.1386,4.00514
29.2672,4.00685
29.3958,4.00571
29.5244,4.0097
29.6531,4.00685
29.7818,4.01084
29.9104,4.01142
30.0391,4.00685
30.1678,4.01084
30.2965,4.00571
30.4252,4.00571
30.5538,4.004
30.6825,4.00685
30.811,4.01027
30.9396,4.00571
31.0681,4.00856
31.1966,4.00514
31.325,4.01313
31.4533,4.01256
31.5816,4.01142
31.7098,4.01084
31.8379,4.01598
31.9659,4.11701
32.0938,4.83276
32.2216,4.47717
32.3493,4.07249
32.4769,4.01712
32.6044,4.01484
32.7317,4.01427
32.8589,4.01142
32.986,4.01256
33.1129,4.00742
33.2397,4.00799
33.3663,4.00742
33.4928,4.00799
33.6191,4.00799
33.7452,4.00799
33.8711,4.00742
33.9969,4.00685
34.1226,4.00457
34.2482,4.01142
34.3739,4.00628
34.4996,4.00628
34.6255,4.03082
34.7516,4.17751
34.8779,4.58048
35.0045,4.1113
35.1315,4.01199
35.2588,4.00685
35.3867,4.00856
35.5151,4.00514
35.644,4.00856
35.7736,4.01142
35.9039,4.00685
36.0349,4.00856
36.1665,4.00799
36.2986,4.01142
36.4311,4.02968
36.5638,4.14612
36.6967,4.67751
36.8295,4.55422
36.9622,4.0782
37.0947,4.02226
37.2268,4.00913
37.3584,4.00685
37.4893,4.00685
37.6195,4.0097
37.7487,4.00742
37.877,4.00514
38.0042,4.00628
38.1302,4.00457
38.2553,4.00285
38.3796,4.00342
38.503,4.00285
38.6258,4.00685
38.7481,4.00571
38.87,4.00514
38.9915,4.00856
39.1128,4.00571
39.234,4.00742
39.3553,4.00228
39.4766,4.00571
39.5982,4.00571
39.7201,4.00342
39.8425,4.00342
39.9654,4.00457
40.0888,4.004
40.2128,4.00799
40.3373,4.00628
40.4622,4.00742
40.5876,4.00685
40.7134,4.00685
40.8397,4.004
40.9663,4.00628
41.0933,4.00342
41.2207,4.00913
41.3484,4.00342
41.4764,4.004
41.6047,4.00856
41.7332,4.00228
41.862,4.00628
41.991,4.004
42.1202,4.00628
42.2496,4.00742
42.3792,4.00342
42.5089,4.00685
42.6387,4.00685
42.7686,4.00799
42.8986,4.00457
43.0286,4.00742
43.1587,4.00685
43.2887,4.00685
43.4188,4.00628
43.5488,4.00685
43.6788,4.00514
43.8088,4.00685
43.9387,4.00571
44.0685,4.00571
44.1984,4.00285
44.3281,4.00514
44.4578,4.00457
44.5875,4.00514
44.7171,4.00285
44.8467,4.00628
44.9762,4.004
45.1057,4.00457
45.2351,4.00514
45.3645,4.00285
45.4938,4.00342
45.6231,4.00571
45.7523,4.00571
45.8815,4.00571
46.0106,4.00342
46.1396,4.00228
46.2686,4.00628
46.3976,4.00342
46.5265,4.00228
46.6553,4.00571
46.7841,4.00342
46.9128,4.00342
47.0415,4.00057
47.1701,4.00571
47.2987,4.004
47.4272,4.00685
47.5556,4.00514
47.684,4.00571
47.8123,4.00856
47.9406,4.02112
48.0688,4.07249
48.1969,4.12728
48.325,4.06963
48.453,4.01998
48.581,4.00514
48.7089,4.00628
48.8367,4.00799
48.9645,4.00228
49.0922,4.00457
49.22,4.00571
49.3476,4.00742
49.4753,4.004
49.6029,4.00571
49.7305,4.00342
49.8581,4.00628
49.9857,4.00457
50.1133,4.00457
50.241,4.00342
50.3686,4.00114
50.4962,4.00342
50.6239,4.00285
50.7516,4.004
50.8794,4.00285
51.0072,4.00514
51.135,4.00228
51.2629,4.004
51.3909,4.00628
51.5189,4.00342
51.647,4.00457
51.7752,4.00285
51.9034,4.00342
52.0318,4.00571
52.1602,4.00285
52.2888,4.004
52.4174,4.00457
52.5462,4.00342
52.6751,4.00228
52.8041,4.00342
52.9333,4.00514
53.0626,4.00742
53.192,4.00228
53.3216,4.00114
53.4513,4.00571
53.5811,4.00228
53.711,4.004
53.841,4.00514
53.971,4.00457
54.101,4.00342
54.231,4.00171
54.361,4.00514
54.491,4.00285
54.6209,4.00285
54.7506,4.00514
54.8803,4.00457
55.0098,4.004
55.1392,4.00171
55.2684,4.00285
55.3974,4.00685
55.5262,4.00285
55.6547,4.00228
55.7829,4.00514
55.9109,4.00457
56.0385,4.00057
56.1658,4.00342
56.2928,4.00342
56.4194,4.00228
56.5457,4.00514
56.6717,4.00457
56.7975,4.00457
56.923,4.00913
57.0484,4.01655
57.1735,4.03824
57.2986,4.11416
57.4235,4.08961
57.5483,4.05479
57.673,4.03311
57.7977,4.00913
57.9225,4.00342
58.0473,4.00685
58.1722,4.004
58.2973,4.004
58.4227,4.004
58.5483,4.00571
58.6742,4.004
58.8005,4.00628
58.9273,4.00457
59.0545,4.00285
59.1822,4.00285
59.3104,4.00628
59.4389,4.00342
59.5677,4.00342
59.6967,4.00342
59.8258,4.00228
59.9549,4.00285
60.084,4.00514
60.2129,4.00571
60.3416,4.00457
60.47,4.00342
60.5981,4.00571
60.7259,4.00457
60.8536,4.00285
60.9812,4.00457
61.1088,4.00342
61.2366,4.00742
61.3645,4.00057
61.4927,4.00628
61.6213,4.00228
61.7504,4.00342
61.8801,4.00285
62.0103,4.00457
62.1411,4.00114
62.2723,4.00342
62.404,4.00342
62.536,4.00628
62.6684,4.00285
62.801,4.004
62.9338,4.00228
63.0668,4.00685
63.1998,4.00457
63.333,4.0097
63.466,4.01826
63.5991,4.03196
63.732,4.15411
63.8647,4.10331
63.9972,4.03425
64.1294,4.01655
64.2612,4.00799
64.3927,4.004
64.5237,4.00742
64.6542,4.00457
64.7842,4.00514
64.9137,4.00342
65.0428,4.004
65.1714,4.00628
65.2996,4.00228
65.4273,4.004
65.5547,4.00114
65.6817,4.00514
65.8083,4.00228
65.9345,4.004
66.0289,4.00228