Folder: ml_demystified/projects/solarcell/xrd/norouzi/delta(efficiency)

File: data_final.csv
Drop,FWHM1,FWHM2,FWHM3,FWHM4,FWHM5,FWHM6,P1,P2,P3,P4,P5,P6,Int1,Int2,Int3,Int4,Int5,Int6,rel_int1,rel_int2,rel_int3,rel_int4,rel_int5,rel_int6,dis1,dis2,dis3,dis4,dis5,dis6,PL_intensity_1,PL_intensity_2,PL_fwhm_1,PL_fwhm_2,PL_peak_positions_1,PL_peak_positions_2,PL_relative_intensity_1,PL_relative_intensity_2,Urbach_energy,Bandgap,delta(eff)
1,0.470964,0.353223,0.51806,0.706446,0.470964,0.824187,32.1897,34.8463,36.7963,48.1969,57.2986,63.6655,0.619199,0.554837,1.01486,0.194991,0.354991,0.212803,0.6101,0.5467,1,0.1921,0.3497,0.2096,10.8999,6.04619,12.8637,22.1376,9.09324,26.1006,30.8323,48.1262,30.8362,181.523,382.5,493.5,0.6406,1,166.5,3.243984,0.2
2,0.470964,0.353223,0.51806,0.706446,0.470964,0.824187,32.1897,34.8463,36.7963,48.1969,57.2986,63.6655,0.619199,0.554837,1.01486,0.194991,0.354991,0.212803,0.6101,0.5467,1,0.1921,0.3497,0.2096,10.8999,6.04619,12.8637,22.1376,9.09324,26.1006,30.8323,48.1262,30.8362,181.523,382.5,493.5,0.6406,1,166.5,3.243984,0.96
3,0.470964,0.353223,0.51806,0.706446,0.470964,0.824187,32.1897,34.8463,36.7963,48.1969,57.2986,63.6655,0.619199,0.554837,1.01486,0.194991,0.354991,0.212803,0.6101,0.5467,1,0.1921,0.3497,0.2096,10.8999,6.04619,12.8637,22.1376,9.09324,26.1006,30.8323,48.1262,30.8362,181.523,382.5,493.5,0.6406,1,166.5,3.243984,0.5
4,0.470964,0.353223,0.51806,0.706446,0.470964,0.824187,32.1897,34.8463,36.7963,48.1969,57.2986,63.6655,0.619199,0.554837,1.01486,0.194991,0.354991,0.212803,0.6101,0.5467,1,0.1921,0.3497,0.2096,10.8999,6.04619,12.8637,22.1376,9.09324,26.1006,30.8323,48.1262,30.8362,181.523,382.5,493.5,0.6406,1,166.5,3.243984,0.62
5,0.470964,0.353223,0.51806,0.706446,0.470964,0.824187,32.1897,34.8463,36.7963,48.1969,57.2986,63.6655,0.619199,0.554837,1.01486,0.194991,0.354991,0.212803,0.6101,0.5467,1,0.1921,0.3497,0.2096,10.8999,6.04619,12.8637,22.1376,9.09324,26.1006,30.8323,48.1262,30.8362,181.523,382.5,493.5,0.6406,1,166.5,3.243984,1.13
6,0.470964,0.353223,0.51806,0.706446,0.470964,0.824187,32.1897,34.8463,36.7963,48.1969,57.2986,63.6655,0.619199,0.554837,1.01486,0.194991,0.354991,0.212803,0.6101,0.5467,1,0.1921,0.3497,0.2096,10.8999,6.04619,12.8637,22.1376,9.09324,26.1006,30.8323,48.1262,30.8362,181.523,382.5,493.5,0.6406,1,166.5,3.243984,1.04
1,0.400319,0.353223,0.51806,0.470964,0.51806,0.51806,32.1577,34.8463,36.7631,48.1969,57.2361,63.7984,0.70929,0.594825,1.01124,0.214976,0.713598,0.242994,0.7014,0.5882,1,0.2125,0.7056,0.2402,7.87647,6.04619,12.8662,9.83894,11.0094,10.2975,38.5592,50.7927,40.9898,185.186,382.5,489.5,0.7591,1,344.1,3.243984,0.11
2,0.400319,0.353223,0.51806,0.470964,0.51806,0.51806,32.1577,34.8463,36.7631,48.1969,57.2361,63.7984,0.70929,0.594825,1.01124,0.214976,0.713598,0.242994,0.7014,0.5882,1,0.2125,0.7056,0.2402,7.87647,6.04619,12.8662,9.83894,11.0094,10.2975,38.5592,50.7927,40.9898,185.186,382.5,489.5,0.7591,1,344.1,3.243984,0.79
3,0.400319,0.353223,0.51806,0.470964,0.51806,0.51806,32.1577,34.8463,36.7631,48.1969,57.2361,63.7984,0.70929,0.594825,1.01124,0.214976,0.713598,0.242994,0.7014,0.5882,1,0.2125,0.7056,0.2402,7.87647,6.04619,12.8662,9.83894,11.0094,10.2975,38.5592,50.7927,40.9898,185.186,382.5,489.5,0.7591,1,344.1,3.243984,0.57
1,0.235482,0.117741,0.235482,0.25903,0.353223,0.353223,32.0938,34.8147,36.6635,48.261,57.111,63.7652,0.988363,0.455213,0.803685,0.204354,0.309358,0.177743,1,0.4605,0.8131,0.2067,0.313,0.1798,2.7263,0.671915,2.65985,2.97479,5.12408,4.78881,37.1048,60.1283,39.6576,219.919,393.5,491.5,0.617,1,312.3,3.153301,0.86
2,0.235482,0.117741,0.235482,0.25903,0.353223,0.353223,32.0938,34.8147,36.6635,48.261,57.111,63.7652,0.988363,0.455213,0.803685,0.204354,0.309358,0.177743,1,0.4605,0.8131,0.2067,0.313,0.1798,2.7263,0.671915,2.65985,2.97479,5.12408,4.78881,37.1048,60.1283,39.6576,219.919,393.5,491.5,0.617,1,312.3,3.153301,1.65
3,0.235482,0.117741,0.235482,0.25903,0.353223,0.353223,32.0938,34.8147,36.6635,48.261,57.111,63.7652,0.988363,0.455213,0.803685,0.204354,0.309358,0.177743,1,0.4605,0.8131,0.2067,0.313,0.1798,2.7263,0.671915,2.65985,2.97479,5.12408,4.78881,37.1048,60.1283,39.6576,219.919,393.5,491.5,0.617,1,312.3,3.153301,1
4,0.235482,0.117741,0.235482,0.25903,0.353223,0.353223,32.0938,34.8147,36.6635,48.261,57.111,63.7652,0.988363,0.455213,0.803685,0.204354,0.309358,0.177743,1,0.4605,0.8131,0.2067,0.313,0.1798,2.7263,0.671915,2.65985,2.97479,5.12408,4.78881,37.1048,60.1283,39.6576,219.919,393.5,491.5,0.617,1,312.3,3.153301,1.85
5,0.235482,0.117741,0.235482,0.25903,0.353223,0.353223,32.0938,34.8147,36.6635,48.261,57.111,63.7652,0.988363,0.455213,0.803685,0.204354,0.309358,0.177743,1,0.4605,0.8131,0.2067,0.313,0.1798,2.7263,0.671915,2.65985,2.97479,5.12408,4.78881,37.1048,60.1283,39.6576,219.919,393.5,491.5,0.617,1,312.3,3.153301,1.29
6,0.235482,0.117741,0.235482,0.25903,0.353223,0.353223,32.0938,34.8147,36.6635,48.261,57.111,63.7652,0.988363,0.455213,0.803685,0.204354,0.309358,0.177743,1,0.4605,0.8131,0.2067,0.313,0.1798,2.7263,0.671915,2.65985,2.97479,5.12408,4.78881,37.1048,60.1283,39.6576,219.919,393.5,491.5,0.617,1,312.3,3.153301,1.88
1,0.423868,0.400319,0.51806,0.682898,0.729994,0.824187,32.0298,34.8463,36.6635,48.1008,57.2361,63.6655,0.798759,0.374761,0.998167,0.150999,0.351657,0.192823,0.8002,0.3754,1,0.1512,0.3523,0.1931,8.83603,7.766,12.8737,20.7019,21.8595,26.1006,23.6757,15.6846,257.255,34.0499,381,474,1,0.6624,279.2,3.256756,0.27
2,0.423868,0.400319,0.51806,0.682898,0.729994,0.824187,32.0298,34.8463,36.6635,48.1008,57.2361,63.6655,0.798759,0.374761,0.998167,0.150999,0.351657,0.192823,0.8002,0.3754,1,0.1512,0.3523,0.1931,8.83603,7.766,12.8737,20.7019,21.8595,26.1006,23.6757,15.6846,257.255,34.0499,381,474,1,0.6624,279.2,3.256756,0.4
3,0.423868,0.400319,0.51806,0.682898,0.729994,0.824187,32.0298,34.8463,36.6635,48.1008,57.2361,63.6655,0.798759,0.374761,0.998167,0.150999,0.351657,0.192823,0.8002,0.3754,1,0.1512,0.3523,0.1931,8.83603,7.766,12.8737,20.7019,21.8595,26.1006,23.6757,15.6846,257.255,34.0499,381,474,1,0.6624,279.2,3.256756,0.27
4,0.423868,0.400319,0.51806,0.682898,0.729994,0.824187,32.0298,34.8463,36.6635,48.1008,57.2361,63.6655,0.798759,0.374761,0.998167,0.150999,0.351657,0.192823,0.8002,0.3754,1,0.1512,0.3523,0.1931,8.83603,7.766,12.8737,20.7019,21.8595,26.1006,23.6757,15.6846,257.255,34.0499,381,474,1,0.6624,279.2,3.256756,1.01
5,0.423868,0.400319,0.51806,0.682898,0.729994,0.824187,32.0298,34.8463,36.6635,48.1008,57.2361,63.6655,0.798759,0.374761,0.998167,0.150999,0.351657,0.192823,0.8002,0.3754,1,0.1512,0.3523,0.1931,8.83603,7.766,12.8737,20.7019,21.8595,26.1006,23.6757,15.6846,257.255,34.0499,381,474,1,0.6624,279.2,3.256756,0.64
6,0.423868,0.400319,0.51806,0.682898,0.729994,0.824187,32.0298,34.8463,36.6635,48.1008,57.2361,63.6655,0.798759,0.374761,0.998167,0.150999,0.351657,0.192823,0.8002,0.3754,1,0.1512,0.3523,0.1931,8.83603,7.766,12.8737,20.7019,21.8595,26.1006,23.6757,15.6846,257.255,34.0499,381,474,1,0.6624,279.2,3.256756,0.96
1,0.25903,0.270804,0.25903,0.400319,0.400319,0.353223,32.1577,34.8779,36.7631,48.1969,57.361,63.7652,0.99957,0.629813,0.73583,0.164974,0.144706,0.174133,1,0.63008,0.7361,0.16504,0.1447,0.1742,3.29776,3.5532,3.21656,7.10863,6.56595,4.78881,50.4121,91.6238,34.7,198.729,389.5,488,0.5502,1,333.4,3.185684,1.19
2,0.25903,0.270804,0.25903,0.400319,0.400319,0.353223,32.1577,34.8779,36.7631,48.1969,57.361,63.7652,0.99957,0.629813,0.73583,0.164974,0.144706,0.174133,1,0.63008,0.7361,0.16504,0.1447,0.1742,3.29776,3.5532,3.21656,7.10863,6.56595,4.78881,50.4121,91.6238,34.7,198.729,389.5,488,0.5502,1,333.4,3.185684,1.7
3,0.25903,0.270804,0.25903,0.400319,0.400319,0.353223,32.1577,34.8779,36.7631,48.1969,57.361,63.7652,0.99957,0.629813,0.73583,0.164974,0.144706,0.174133,1,0.63008,0.7361,0.16504,0.1447,0.1742,3.29776,3.5532,3.21656,7.10863,6.56595,4.78881,50.4121,91.6238,34.7,198.729,389.5,488,0.5502,1,333.4,3.185684,1.64
4,0.25903,0.270804,0.25903,0.400319,0.400319,0.353223,32.1577,34.8779,36.7631,48.1969,57.361,63.7652,0.99957,0.629813,0.73583,0.164974,0.144706,0.174133,1,0.63008,0.7361,0.16504,0.1447,0.1742,3.29776,3.5532,3.21656,7.10863,6.56595,4.78881,50.4121,91.6238,34.7,198.729,389.5,488,0.5502,1,333.4,3.185684,0.92
5,0.25903,0.270804,0.25903,0.400319,0.400319,0.353223,32.1577,34.8779,36.7631,48.1969,57.361,63.7652,0.99957,0.629813,0.73583,0.164974,0.144706,0.174133,1,0.63008,0.7361,0.16504,0.1447,0.1742,3.29776,3.5532,3.21656,7.10863,6.56595,4.78881,50.4121,91.6238,34.7,198.729,389.5,488,0.5502,1,333.4,3.185684,1.12
6,0.25903,0.270804,0.25903,0.400319,0.400319,0.353223,32.1577,34.8779,36.7631,48.1969,57.361,63.7652,0.99957,0.629813,0.73583,0.164974,0.144706,0.174133,1,0.63008,0.7361,0.16504,0.1447,0.1742,3.29776,3.5532,3.21656,7.10863,6.56595,4.78881,50.4121,91.6238,34.7,198.729,389.5,488,0.5502,1,333.4,3.185684,1.81