Folder: ml_demystified/projects/solarcell/xrd/nezamloo/XRD+PL results/catboost_info

File: time_left.tsv
iter	Passed	Remaining
0	72	72708
4	78	15581
8	83	9191
12	89	6811
16	95	5522
20	100	4702
24	105	4127
28	110	3689
32	113	3315
36	116	3027
40	118	2782
44	121	2574
48	123	2395
52	125	2244
56	127	2115
60	130	2002
64	132	1899
68	133	1805
72	136	1730
76	137	1651
80	139	1583
84	141	1526
88	143	1472
92	145	1421
96	147	1372
100	148	1325
104	150	1284
108	152	1245
112	153	1208
116	156	1180
120	158	1149
124	159	1117
128	161	1091
132	164	1071
136	166	1048
140	168	1023
144	169	999
148	171	980
152	173	959
156	174	939
160	176	921
164	179	906
168	180	889
172	183	875
176	185	863
180	187	849
184	189	836
188	192	825
192	194	814
196	196	802
200	199	792
204	201	782
208	204	772
212	206	762
216	208	752
220	210	742
224	212	732
228	215	725
232	217	715
236	219	706
240	221	697
244	223	688
248	225	679
252	227	671
256	229	664
260	231	656
264	233	648
268	236	641
272	238	633
276	239	626
280	241	619
284	244	613
288	246	606
292	248	598
296	250	593
300	252	586
304	254	579
308	256	573
312	258	567
316	260	561
320	262	555
324	264	549
328	266	543
332	268	537
336	270	532
340	273	527
344	275	522
348	277	516
352	279	512
356	281	507
360	284	502
364	286	497
368	288	493
372	290	487
376	292	482
380	294	478
384	296	473
388	298	468
392	300	464
396	302	459
400	304	455
404	306	450
408	308	446
412	310	441
416	312	437
420	314	432
424	317	429
428	319	424
432	321	420
436	324	417
440	326	413
444	328	409
448	330	405
452	332	401
456	334	397
460	336	393
464	339	390
468	340	386
472	342	382
476	345	378
480	347	375
484	349	371
488	351	367
492	353	363
496	355	360
500	357	356
504	360	353
508	362	349
512	364	345
516	366	342
520	368	338
524	370	334
528	372	331
532	374	328
536	377	325
540	379	321
544	381	318
548	383	315
552	387	313
556	392	311
560	394	308
564	396	305
568	398	301
572	400	298
576	402	295
580	404	291
584	406	288
588	408	285
592	411	282
596	412	278
600	414	275
604	416	272
608	419	269
612	421	265
616	423	262
620	425	259
624	427	256
628	429	253
632	431	250
636	433	247
640	435	243
644	437	240
648	439	237
652	441	234
656	443	231
660	445	228
664	448	225
668	450	222
672	452	219
676	454	217
680	456	214
684	458	211
688	461	208
692	463	205
696	465	202
700	467	199
704	469	196
708	471	193
712	474	191
716	477	188
720	479	185
724	481	182
728	483	179
732	485	176
736	487	174
740	489	171
744	492	168
748	494	165
752	496	162
756	498	159
760	500	157
764	502	154
768	503	151
772	506	148
776	508	145
780	510	143
784	512	140
788	514	137
792	516	134
796	518	132
800	520	129
804	522	126
808	524	123
812	527	121
816	529	118
820	530	115
824	532	113
828	535	110
832	537	107
836	539	105
840	542	102
844	545	99
848	547	97
852	550	94
856	552	92
860	554	89
864	558	87
868	561	84
872	566	82
876	569	79
880	573	77
884	575	74
888	578	72
892	580	69
896	583	66
900	586	64
904	589	61
908	591	59
912	596	56
916	599	54
920	602	51
924	604	49
928	606	46
932	609	43
936	611	41
940	627	39
944	632	36
948	637	34
952	642	31
956	648	29
960	653	26
964	656	23
968	659	21
972	661	18
976	666	15
980	671	12
984	675	10
988	677	7
992	679	4
996	681	2
999	683	0